# Energy [eV]  reflect_xx

   0.013610  0.325710E+00
   0.040820  0.325730E+00
   0.068030  0.325770E+00
   0.095240  0.325829E+00
   0.122450  0.325908E+00
   0.149660  0.326006E+00
   0.176870  0.326124E+00
   0.204090  0.326262E+00
   0.231300  0.326419E+00
   0.258510  0.326596E+00
   0.285720  0.326793E+00
   0.312930  0.327011E+00
   0.340140  0.327248E+00
   0.367350  0.327505E+00
   0.394570  0.327783E+00
   0.421780  0.328082E+00
   0.448990  0.328401E+00
   0.476200  0.328740E+00
   0.503410  0.329101E+00
   0.530620  0.329483E+00
   0.557830  0.329886E+00
   0.585040  0.330311E+00
   0.612260  0.330758E+00
   0.639470  0.331227E+00
   0.666680  0.331718E+00
   0.693890  0.332231E+00
   0.721100  0.332767E+00
   0.748310  0.333326E+00
   0.775520  0.333909E+00
   0.802740  0.334516E+00
   0.829950  0.335146E+00
   0.857160  0.335801E+00
   0.884370  0.336481E+00
   0.911580  0.337185E+00
   0.938790  0.337916E+00
   0.966000  0.338672E+00
   0.993220  0.339456E+00
   1.020430  0.340265E+00
   1.047640  0.341103E+00
   1.074850  0.341969E+00
   1.102060  0.342863E+00
   1.129270  0.343786E+00
   1.156480  0.344739E+00
   1.183700  0.345723E+00
   1.210910  0.346738E+00
   1.238120  0.347785E+00
   1.265330  0.348864E+00
   1.292540  0.349977E+00
   1.319750  0.351125E+00
   1.346960  0.352308E+00
   1.374180  0.353527E+00
   1.401390  0.354783E+00
   1.428600  0.356078E+00
   1.455810  0.357412E+00
   1.483020  0.358787E+00
   1.510230  0.360204E+00
   1.537440  0.361664E+00
   1.564660  0.363170E+00
   1.591870  0.364721E+00
   1.619080  0.366321E+00
   1.646290  0.367971E+00
   1.673500  0.369672E+00
   1.700710  0.371427E+00
   1.727920  0.373239E+00
   1.755130  0.375109E+00
   1.782350  0.377040E+00
   1.809560  0.379035E+00
   1.836770  0.381097E+00
   1.863980  0.383229E+00
   1.891190  0.385435E+00
   1.918400  0.387718E+00
   1.945610  0.390084E+00
   1.972830  0.392537E+00
   2.000040  0.395081E+00
   2.027250  0.397724E+00
   2.054460  0.400470E+00
   2.081670  0.403329E+00
   2.108880  0.406307E+00
   2.136090  0.409414E+00
   2.163310  0.412662E+00
   2.190520  0.416060E+00
   2.217730  0.419622E+00
   2.244940  0.423365E+00
   2.272150  0.427307E+00
   2.299360  0.431468E+00
   2.326570  0.435873E+00
   2.353790  0.440551E+00
   2.381000  0.445530E+00
   2.408210  0.450847E+00
   2.435420  0.456535E+00
   2.462630  0.462621E+00
   2.489840  0.469107E+00
   2.517050  0.475929E+00
   2.544270  0.482905E+00
   2.571480  0.489666E+00
   2.598690  0.495694E+00
   2.625900  0.500473E+00
   2.653110  0.503742E+00
   2.680320  0.505659E+00
   2.707530  0.506712E+00
   2.734750  0.507403E+00
   2.761960  0.508016E+00
   2.789170  0.508600E+00
   2.816380  0.509110E+00
   2.843590  0.509525E+00
   2.870800  0.509883E+00
   2.898010  0.510230E+00
   2.925220  0.510614E+00
   2.952440  0.511088E+00
   2.979650  0.511681E+00
   3.006860  0.512397E+00
   3.034070  0.513237E+00
   3.061280  0.514194E+00
   3.088490  0.515263E+00
   3.115700  0.516447E+00
   3.142920  0.517765E+00
   3.170130  0.519240E+00
   3.197340  0.520900E+00
   3.224550  0.522767E+00
   3.251760  0.524860E+00
   3.278970  0.527201E+00
   3.306180  0.529820E+00
   3.333400  0.532760E+00
   3.360610  0.536075E+00
   3.387820  0.539834E+00
   3.415030  0.544119E+00
   3.442240  0.549017E+00
   3.469450  0.554621E+00
   3.496660  0.561022E+00
   3.523880  0.568283E+00
   3.551090  0.576404E+00
   3.578300  0.585319E+00
   3.605510  0.594916E+00
   3.632720  0.605077E+00
   3.659930  0.615661E+00
   3.687140  0.626442E+00
   3.714360  0.637053E+00
   3.741570  0.647001E+00
   3.768780  0.655800E+00
   3.795990  0.663011E+00
   3.823200  0.668277E+00
   3.850410  0.671367E+00
   3.877620  0.672264E+00
   3.904840  0.671309E+00
   3.932050  0.669148E+00
   3.959260  0.666423E+00
   3.986470  0.663563E+00
   4.013680  0.660782E+00
   4.040890  0.658159E+00
   4.068100  0.655701E+00
   4.095310  0.653388E+00
   4.122530  0.651186E+00
   4.149740  0.649060E+00
   4.176950  0.646971E+00
   4.204160  0.644870E+00
   4.231370  0.642689E+00
   4.258580  0.640345E+00
   4.285790  0.637753E+00
   4.313010  0.634863E+00
   4.340220  0.631707E+00
   4.367430  0.628416E+00
   4.394640  0.625227E+00
   4.421850  0.622479E+00
   4.449060  0.620593E+00
   4.476270  0.620053E+00
   4.503490  0.621251E+00
   4.530700  0.624124E+00
   4.557910  0.627963E+00
   4.585120  0.631868E+00
   4.612330  0.635284E+00
   4.639540  0.638033E+00
   4.666750  0.640139E+00
   4.693970  0.641713E+00
   4.721180  0.642877E+00
   4.748390  0.643717E+00
   4.775600  0.644295E+00
   4.802810  0.644669E+00
   4.830020  0.644910E+00
   4.857230  0.645088E+00
   4.884450  0.645272E+00
   4.911660  0.645528E+00
   4.938870  0.645927E+00
   4.966080  0.646541E+00
   4.993290  0.647470E+00
   5.020500  0.648852E+00
   5.047710  0.650830E+00
   5.074930  0.653438E+00
   5.102140  0.656484E+00
   5.129350  0.659639E+00
   5.156560  0.662611E+00
   5.183770  0.665241E+00
   5.210980  0.667468E+00
   5.238190  0.669276E+00
   5.265400  0.670662E+00
   5.292620  0.671633E+00
   5.319830  0.672210E+00
   5.347040  0.672429E+00
   5.374250  0.672322E+00
   5.401460  0.671910E+00
   5.428670  0.671220E+00
   5.455880  0.670290E+00
   5.483100  0.669179E+00
   5.510310  0.667963E+00
   5.537520  0.666741E+00
   5.564730  0.665621E+00
   5.591940  0.664697E+00
   5.619150  0.664017E+00
   5.646360  0.663588E+00
   5.673580  0.663390E+00
   5.700790  0.663390E+00
   5.728000  0.663551E+00
   5.755210  0.663852E+00
   5.782420  0.664301E+00
   5.809630  0.664941E+00
   5.836840  0.665840E+00
   5.864060  0.667079E+00
   5.891270  0.668702E+00
   5.918480  0.670638E+00
   5.945690  0.672646E+00
   5.972900  0.674433E+00
   6.000110  0.675857E+00
   6.027320  0.676935E+00
   6.054540  0.677730E+00
   6.081750  0.678278E+00
   6.108960  0.678584E+00
   6.136170  0.678647E+00
   6.163380  0.678471E+00
   6.190590  0.678079E+00
   6.217800  0.677498E+00
   6.245020  0.676759E+00
   6.272230  0.675889E+00
   6.299440  0.674907E+00
   6.326650  0.673829E+00
   6.353860  0.672671E+00
   6.381070  0.671457E+00
   6.408280  0.670225E+00
   6.435490  0.669017E+00
   6.462710  0.667877E+00
   6.489920  0.666831E+00
   6.517130  0.665882E+00
   6.544340  0.664997E+00
   6.571550  0.664103E+00
   6.598760  0.663104E+00
   6.625970  0.661911E+00
   6.653190  0.660474E+00
   6.680400  0.658791E+00
   6.707610  0.656902E+00
   6.734820  0.654881E+00
   6.762030  0.652809E+00
   6.789240  0.650740E+00
   6.816450  0.648709E+00
   6.843670  0.646774E+00
   6.870880  0.645026E+00
   6.898090  0.643541E+00
   6.925300  0.642342E+00
   6.952510  0.641381E+00
   6.979720  0.640570E+00
   7.006930  0.639836E+00
   7.034150  0.639160E+00
   7.061360  0.638594E+00
   7.088570  0.638247E+00
   7.115780  0.638240E+00
   7.142990  0.638673E+00
   7.170200  0.639593E+00
   7.197410  0.640950E+00
   7.224630  0.642586E+00
   7.251840  0.644270E+00
   7.279050  0.645816E+00
   7.306260  0.647139E+00
   7.333470  0.648249E+00
   7.360680  0.649192E+00
   7.387890  0.650023E+00
   7.415110  0.650799E+00
   7.442320  0.651566E+00
   7.469530  0.652343E+00
   7.496740  0.653125E+00
   7.523950  0.653869E+00
   7.551160  0.654490E+00
   7.578370  0.654898E+00
   7.605580  0.655061E+00
   7.632800  0.655021E+00
   7.660010  0.654876E+00
   7.687220  0.654738E+00
   7.714430  0.654682E+00
   7.741640  0.654722E+00
   7.768850  0.654825E+00
   7.796060  0.654946E+00
   7.823280  0.655049E+00
   7.850490  0.655107E+00
   7.877700  0.655111E+00
   7.904910  0.655066E+00
   7.932120  0.654984E+00
   7.959330  0.654869E+00
   7.986540  0.654711E+00
   8.013760  0.654491E+00
   8.040970  0.654200E+00
   8.068180  0.653856E+00
   8.095390  0.653512E+00
   8.122600  0.653248E+00
   8.149810  0.653155E+00
   8.177020  0.653305E+00
   8.204240  0.653745E+00
   8.231450  0.654502E+00
   8.258660  0.655589E+00
   8.285870  0.657000E+00
   8.313080  0.658682E+00
   8.340290  0.660519E+00
   8.367500  0.662347E+00
   8.394720  0.664010E+00
   8.421930  0.665419E+00
   8.449140  0.666569E+00
   8.476350  0.667499E+00
   8.503560  0.668248E+00
   8.530770  0.668837E+00
   8.557980  0.669282E+00
   8.585200  0.669606E+00
   8.612410  0.669831E+00
   8.639620  0.669969E+00
   8.666830  0.670038E+00
   8.694040  0.670078E+00
   8.721250  0.670130E+00
   8.748460  0.670197E+00
   8.775670  0.670247E+00
   8.802890  0.670253E+00
   8.830100  0.670208E+00
   8.857310  0.670115E+00
   8.884520  0.669988E+00
   8.911730  0.669851E+00
   8.938940  0.669737E+00
   8.966150  0.669676E+00
   8.993370  0.669685E+00
   9.020580  0.669758E+00
   9.047790  0.669871E+00
   9.075000  0.670000E+00
   9.102210  0.670130E+00
   9.129420  0.670248E+00
   9.156630  0.670327E+00
   9.183850  0.670335E+00
   9.211060  0.670240E+00
   9.238270  0.670042E+00
   9.265480  0.669777E+00
   9.292690  0.669500E+00
   9.319900  0.669248E+00
   9.347110  0.669042E+00
   9.374330  0.668903E+00
   9.401540  0.668856E+00
   9.428750  0.668913E+00
   9.455960  0.669070E+00
   9.483170  0.669301E+00
   9.510380  0.669562E+00
   9.537590  0.669807E+00
   9.564810  0.669999E+00
   9.592020  0.670117E+00
   9.619230  0.670153E+00
   9.646440  0.670108E+00
   9.673650  0.669988E+00
   9.700860  0.669793E+00
   9.728070  0.669522E+00
   9.755290  0.669176E+00
   9.782500  0.668763E+00
   9.809710  0.668313E+00
   9.836920  0.667876E+00
   9.864130  0.667509E+00
   9.891340  0.667249E+00
   9.918550  0.667090E+00
   9.945760  0.666985E+00
   9.972980  0.666864E+00
  10.000190  0.666667E+00
  10.027400  0.666358E+00
  10.054610  0.665939E+00
  10.081820  0.665448E+00
  10.109030  0.664950E+00
  10.136240  0.664522E+00
  10.163460  0.664235E+00
  10.190670  0.664128E+00
  10.217880  0.664184E+00
  10.245090  0.664344E+00
  10.272300  0.664550E+00
  10.299510  0.664805E+00
  10.326720  0.665176E+00
  10.353940  0.665719E+00
  10.381150  0.666408E+00
  10.408360  0.667154E+00
  10.435570  0.667862E+00
  10.462780  0.668453E+00
  10.489990  0.668873E+00
  10.517200  0.669092E+00
  10.544420  0.669102E+00
  10.571630  0.668919E+00
  10.598840  0.668578E+00
  10.626050  0.668134E+00
  10.653260  0.667642E+00
  10.680470  0.667139E+00
  10.707680  0.666642E+00
  10.734900  0.666152E+00
  10.762110  0.665658E+00
  10.789320  0.665143E+00
  10.816530  0.664599E+00
  10.843740  0.664038E+00
  10.870950  0.663467E+00
  10.898160  0.662886E+00
  10.925380  0.662278E+00
  10.952590  0.661622E+00
  10.979800  0.660894E+00
  11.007010  0.660062E+00
  11.034220  0.659117E+00
  11.061430  0.658083E+00
  11.088640  0.657026E+00
  11.115850  0.656036E+00
  11.143070  0.655188E+00
  11.170280  0.654528E+00
  11.197490  0.654056E+00
  11.224700  0.653747E+00
  11.251910  0.653546E+00
  11.279120  0.653386E+00
  11.306330  0.653197E+00
  11.333550  0.652934E+00
  11.360760  0.652590E+00
  11.387970  0.652205E+00
  11.415180  0.651840E+00
  11.442390  0.651546E+00
  11.469600  0.651345E+00
  11.496810  0.651242E+00
  11.524030  0.651269E+00
  11.551240  0.651496E+00
  11.578450  0.651959E+00
  11.605660  0.652611E+00
  11.632870  0.653388E+00
  11.660080  0.654278E+00
  11.687290  0.655292E+00
  11.714510  0.656429E+00
  11.741720  0.657665E+00
  11.768930  0.658975E+00
  11.796140  0.660339E+00
  11.823350  0.661749E+00
  11.850560  0.663193E+00
  11.877770  0.664635E+00
  11.904990  0.666015E+00
  11.932200  0.667266E+00
  11.959410  0.668329E+00
  11.986620  0.669170E+00
  12.013830  0.669770E+00
  12.041040  0.670126E+00
  12.068250  0.670245E+00
  12.095470  0.670151E+00
  12.122680  0.669886E+00
  12.149890  0.669497E+00
  12.177100  0.669036E+00
  12.204310  0.668563E+00
  12.231520  0.668156E+00
  12.258730  0.667855E+00
  12.285940  0.667638E+00
  12.313160  0.667454E+00
  12.340370  0.667253E+00
  12.367580  0.666965E+00
  12.394790  0.666493E+00
  12.422000  0.665748E+00
  12.449210  0.664715E+00
  12.476420  0.663457E+00
  12.503640  0.662072E+00
  12.530850  0.660642E+00
  12.558060  0.659211E+00
  12.585270  0.657804E+00
  12.612480  0.656455E+00
  12.639690  0.655241E+00
  12.666900  0.654279E+00
  12.694120  0.653667E+00
  12.721330  0.653434E+00
  12.748540  0.653532E+00
  12.775750  0.653884E+00
  12.802960  0.654399E+00
  12.830170  0.654974E+00
  12.857380  0.655517E+00
  12.884600  0.655984E+00
  12.911810  0.656381E+00
  12.939020  0.656740E+00
  12.966230  0.657098E+00
  12.993440  0.657480E+00
  13.020650  0.657899E+00
  13.047860  0.658369E+00
  13.075080  0.658923E+00
  13.102290  0.659630E+00
  13.129500  0.660590E+00
  13.156710  0.661919E+00
  13.183920  0.663716E+00
  13.211130  0.666012E+00
  13.238340  0.668762E+00
  13.265560  0.671895E+00
  13.292770  0.675367E+00
  13.319980  0.679192E+00
  13.347190  0.683440E+00
  13.374400  0.688237E+00
  13.401610  0.693769E+00
  13.428820  0.700291E+00
  13.456030  0.708144E+00
  13.483250  0.717788E+00
  13.510460  0.729811E+00
  13.537670  0.744889E+00
  13.564880  0.763494E+00
