#                                                                                
# Lorentzian broadening with gamma= 0.100000  [eV]
# Im(epsilon) shifted by   0.0000   [eV]
# No intraband contributions added
#
# Energy [eV]    eloss_xx      eloss_zz
#
   0.013610  0.906845E-02  0.906845E-02
   0.040820  0.947001E-02  0.947001E-02
   0.068030  0.989343E-02  0.989343E-02
   0.095240  0.103408E-01  0.103408E-01
   0.122450  0.108147E-01  0.108147E-01
   0.149660  0.113176E-01  0.113176E-01
   0.176870  0.118530E-01  0.118530E-01
   0.204090  0.124245E-01  0.124245E-01
   0.231300  0.130362E-01  0.130362E-01
   0.258510  0.136932E-01  0.136932E-01
   0.285720  0.144013E-01  0.144013E-01
   0.312930  0.151679E-01  0.151679E-01
   0.340140  0.160012E-01  0.160012E-01
   0.367350  0.169118E-01  0.169118E-01
   0.394570  0.179126E-01  0.179126E-01
   0.421780  0.190189E-01  0.190189E-01
   0.448990  0.202508E-01  0.202508E-01
   0.476200  0.216342E-01  0.216342E-01
   0.503410  0.232025E-01  0.232025E-01
   0.530620  0.250005E-01  0.250005E-01
   0.557830  0.270886E-01  0.270886E-01
   0.585040  0.295508E-01  0.295508E-01
   0.612260  0.325047E-01  0.325047E-01
   0.639470  0.361101E-01  0.361101E-01
   0.666680  0.405827E-01  0.405827E-01
   0.693890  0.461723E-01  0.461723E-01
   0.721100  0.530770E-01  0.530770E-01
   0.748310  0.612777E-01  0.612777E-01
   0.775520  0.704323E-01  0.704323E-01
   0.802740  0.799985E-01  0.799985E-01
   0.829950  0.894590E-01  0.894590E-01
   0.857160  0.985242E-01  0.985242E-01
   0.884370  0.107221E+00  0.107221E+00
   0.911580  0.115875E+00  0.115875E+00
   0.938790  0.124936E+00  0.124936E+00
   0.966000  0.134747E+00  0.134747E+00
   0.993220  0.145436E+00  0.145436E+00
   1.020430  0.156933E+00  0.156933E+00
   1.047640  0.169048E+00  0.169048E+00
   1.074850  0.181535E+00  0.181535E+00
   1.102060  0.194192E+00  0.194192E+00
   1.129270  0.206893E+00  0.206893E+00
   1.156480  0.219567E+00  0.219567E+00
   1.183700  0.232157E+00  0.232157E+00
   1.210910  0.244551E+00  0.244551E+00
   1.238120  0.256603E+00  0.256603E+00
   1.265330  0.268154E+00  0.268154E+00
   1.292540  0.279117E+00  0.279117E+00
   1.319750  0.289541E+00  0.289541E+00
   1.346960  0.299595E+00  0.299595E+00
   1.374180  0.309503E+00  0.309503E+00
   1.401390  0.319494E+00  0.319494E+00
   1.428600  0.329791E+00  0.329791E+00
   1.455810  0.340535E+00  0.340535E+00
   1.483020  0.351676E+00  0.351676E+00
   1.510230  0.362926E+00  0.362926E+00
   1.537440  0.373933E+00  0.373933E+00
   1.564660  0.384486E+00  0.384486E+00
   1.591870  0.394547E+00  0.394547E+00
   1.619080  0.404211E+00  0.404211E+00
   1.646290  0.413607E+00  0.413607E+00
   1.673500  0.422818E+00  0.422818E+00
   1.700710  0.431873E+00  0.431873E+00
   1.727920  0.440801E+00  0.440801E+00
   1.755130  0.449678E+00  0.449678E+00
   1.782350  0.458590E+00  0.458590E+00
   1.809560  0.467594E+00  0.467594E+00
   1.836770  0.476774E+00  0.476774E+00
   1.863980  0.486244E+00  0.486244E+00
   1.891190  0.496138E+00  0.496138E+00
   1.918400  0.506590E+00  0.506590E+00
   1.945610  0.517727E+00  0.517727E+00
   1.972830  0.529683E+00  0.529683E+00
   2.000040  0.542598E+00  0.542598E+00
   2.027250  0.556671E+00  0.556671E+00
   2.054460  0.572135E+00  0.572135E+00
   2.081670  0.589226E+00  0.589226E+00
   2.108880  0.608127E+00  0.608127E+00
   2.136090  0.628956E+00  0.628956E+00
   2.163310  0.651813E+00  0.651813E+00
   2.190520  0.676790E+00  0.676790E+00
   2.217730  0.704053E+00  0.704053E+00
   2.244940  0.733806E+00  0.733806E+00
   2.272150  0.766311E+00  0.766311E+00
   2.299360  0.801885E+00  0.801885E+00
   2.326570  0.840898E+00  0.840898E+00
   2.353790  0.883842E+00  0.883842E+00
   2.381000  0.931410E+00  0.931410E+00
   2.408210  0.984763E+00  0.984763E+00
   2.435420  0.104549E+01  0.104549E+01
   2.462630  0.111533E+01  0.111533E+01
   2.489840  0.119550E+01  0.119550E+01
   2.517050  0.128632E+01  0.128632E+01
   2.544270  0.138727E+01  0.138727E+01
   2.571480  0.149703E+01  0.149703E+01
   2.598690  0.161361E+01  0.161361E+01
   2.625900  0.173361E+01  0.173361E+01
   2.653110  0.185123E+01  0.185123E+01
   2.680320  0.195676E+01  0.195676E+01
   2.707530  0.203527E+01  0.203527E+01
   2.734750  0.206694E+01  0.206694E+01
   2.761960  0.203198E+01  0.203198E+01
   2.789170  0.192132E+01  0.192132E+01
   2.816380  0.174595E+01  0.174595E+01
   2.843590  0.153403E+01  0.153403E+01
   2.870800  0.131638E+01  0.131638E+01
   2.898010  0.111455E+01  0.111455E+01
   2.925220  0.938676E+00  0.938676E+00
   2.952440  0.790906E+00  0.790906E+00
   2.979650  0.669417E+00  0.669417E+00
   3.006860  0.570552E+00  0.570552E+00
   3.034070  0.490306E+00  0.490306E+00
   3.061280  0.424922E+00  0.424922E+00
   3.088490  0.371249E+00  0.371249E+00
   3.115700  0.326845E+00  0.326845E+00
   3.142920  0.289862E+00  0.289862E+00
   3.170130  0.258939E+00  0.258939E+00
   3.197340  0.232990E+00  0.232990E+00
   3.224550  0.211169E+00  0.211169E+00
   3.251760  0.192757E+00  0.192757E+00
   3.278970  0.177080E+00  0.177080E+00
   3.306180  0.163499E+00  0.163499E+00
   3.333400  0.151483E+00  0.151483E+00
   3.360610  0.140670E+00  0.140670E+00
   3.387820  0.130816E+00  0.130816E+00
   3.415030  0.121784E+00  0.121784E+00
   3.442240  0.113509E+00  0.113509E+00
   3.469450  0.105966E+00  0.105966E+00
   3.496660  0.991341E-01  0.991341E-01
   3.523880  0.929746E-01  0.929746E-01
   3.551090  0.874480E-01  0.874480E-01
   3.578300  0.825047E-01  0.825047E-01
   3.605510  0.780916E-01  0.780916E-01
   3.632720  0.741480E-01  0.741480E-01
   3.659930  0.706110E-01  0.706110E-01
   3.687140  0.674226E-01  0.674226E-01
   3.714360  0.645328E-01  0.645328E-01
   3.741570  0.619029E-01  0.619029E-01
   3.768780  0.594978E-01  0.594978E-01
   3.795990  0.572893E-01  0.572893E-01
   3.823200  0.552536E-01  0.552536E-01
   3.850410  0.533722E-01  0.533722E-01
   3.877620  0.516325E-01  0.516325E-01
   3.904840  0.500281E-01  0.500281E-01
   3.932050  0.485617E-01  0.485617E-01
   3.959260  0.472418E-01  0.472418E-01
   3.986470  0.460834E-01  0.460834E-01
   4.013680  0.451030E-01  0.451030E-01
   4.040890  0.443120E-01  0.443120E-01
   4.068100  0.437143E-01  0.437143E-01
   4.095310  0.433061E-01  0.433061E-01
   4.122530  0.430785E-01  0.430785E-01
   4.149740  0.430204E-01  0.430204E-01
   4.176950  0.431185E-01  0.431185E-01
   4.204160  0.433596E-01  0.433596E-01
   4.231370  0.437296E-01  0.437296E-01
   4.258580  0.442146E-01  0.442146E-01
   4.285790  0.447999E-01  0.447999E-01
   4.313010  0.454710E-01  0.454710E-01
   4.340220  0.462113E-01  0.462113E-01
   4.367430  0.470039E-01  0.470039E-01
   4.394640  0.478312E-01  0.478312E-01
   4.421850  0.486753E-01  0.486753E-01
   4.449060  0.495182E-01  0.495182E-01
   4.476270  0.503426E-01  0.503426E-01
   4.503490  0.511318E-01  0.511318E-01
   4.530700  0.518692E-01  0.518692E-01
   4.557910  0.525417E-01  0.525417E-01
   4.585120  0.531414E-01  0.531414E-01
   4.612330  0.536721E-01  0.536721E-01
   4.639540  0.541633E-01  0.541633E-01
   4.666750  0.546875E-01  0.546875E-01
   4.693970  0.553637E-01  0.553637E-01
   4.721180  0.563473E-01  0.563473E-01
   4.748390  0.578282E-01  0.578282E-01
   4.775600  0.600432E-01  0.600432E-01
   4.802810  0.633024E-01  0.633024E-01
   4.830020  0.680168E-01  0.680168E-01
   4.857230  0.746982E-01  0.746982E-01
   4.884450  0.838668E-01  0.838668E-01
   4.911660  0.957761E-01  0.957761E-01
   4.938870  0.110132E+00  0.110132E+00
   4.966080  0.126084E+00  0.126084E+00
   4.993290  0.142538E+00  0.142538E+00
   5.020500  0.158350E+00  0.158350E+00
   5.047710  0.172272E+00  0.172272E+00
   5.074930  0.183059E+00  0.183059E+00
   5.102140  0.189935E+00  0.189935E+00
   5.129350  0.193061E+00  0.193061E+00
   5.156560  0.193323E+00  0.193323E+00
   5.183770  0.191656E+00  0.191656E+00
   5.210980  0.188673E+00  0.188673E+00
   5.238190  0.184818E+00  0.184818E+00
   5.265400  0.180498E+00  0.180498E+00
   5.292620  0.176019E+00  0.176019E+00
   5.319830  0.171570E+00  0.171570E+00
   5.347040  0.167246E+00  0.167246E+00
   5.374250  0.163102E+00  0.163102E+00
   5.401460  0.159166E+00  0.159166E+00
   5.428670  0.155402E+00  0.155402E+00
   5.455880  0.151681E+00  0.151681E+00
   5.483100  0.147828E+00  0.147828E+00
   5.510310  0.143734E+00  0.143734E+00
   5.537520  0.139382E+00  0.139382E+00
   5.564730  0.134762E+00  0.134762E+00
   5.591940  0.129823E+00  0.129823E+00
   5.619150  0.124515E+00  0.124515E+00
   5.646360  0.118844E+00  0.118844E+00
   5.673580  0.112877E+00  0.112877E+00
   5.700790  0.106705E+00  0.106705E+00
   5.728000  0.100399E+00  0.100399E+00
   5.755210  0.940270E-01  0.940270E-01
   5.782420  0.876689E-01  0.876689E-01
   5.809630  0.814032E-01  0.814032E-01
   5.836840  0.752957E-01  0.752957E-01
   5.864060  0.693921E-01  0.693921E-01
   5.891270  0.637306E-01  0.637306E-01
   5.918480  0.583388E-01  0.583388E-01
   5.945690  0.532487E-01  0.532487E-01
   5.972900  0.484956E-01  0.484956E-01
   6.000110  0.441126E-01  0.441126E-01
   6.027320  0.401216E-01  0.401216E-01
   6.054540  0.365256E-01  0.365256E-01
   6.081750  0.333132E-01  0.333132E-01
   6.108960  0.304573E-01  0.304573E-01
   6.136170  0.279269E-01  0.279269E-01
   6.163380  0.256910E-01  0.256910E-01
   6.190590  0.237193E-01  0.237193E-01
   6.217800  0.219821E-01  0.219821E-01
   6.245020  0.204501E-01  0.204501E-01
   6.272230  0.190959E-01  0.190959E-01
   6.299440  0.178927E-01  0.178927E-01
   6.326650  0.168176E-01  0.168176E-01
   6.353860  0.158529E-01  0.158529E-01
   6.381070  0.149859E-01  0.149859E-01
   6.408280  0.142083E-01  0.142083E-01
   6.435490  0.135139E-01  0.135139E-01
   6.462710  0.128971E-01  0.128971E-01
   6.489920  0.123526E-01  0.123526E-01
   6.517130  0.118750E-01  0.118750E-01
   6.544340  0.114595E-01  0.114595E-01
   6.571550  0.111010E-01  0.111010E-01
   6.598760  0.107944E-01  0.107944E-01
   6.625970  0.105341E-01  0.105341E-01
   6.653190  0.103151E-01  0.103151E-01
   6.680400  0.101337E-01  0.101337E-01
   6.707610  0.998725E-02  0.998725E-02
   6.734820  0.987468E-02  0.987468E-02
   6.762030  0.979599E-02  0.979599E-02
   6.789240  0.975239E-02  0.975239E-02
   6.816450  0.974635E-02  0.974635E-02
   6.843670  0.978180E-02  0.978180E-02
   6.870880  0.986450E-02  0.986450E-02
   6.898090  0.100026E-01  0.100026E-01
   6.925300  0.102077E-01  0.102077E-01
   6.952510  0.104958E-01  0.104958E-01
   6.979720  0.108884E-01  0.108884E-01
   7.006930  0.114126E-01  0.114126E-01
   7.034150  0.120974E-01  0.120974E-01
   7.061360  0.129656E-01  0.129656E-01
   7.088570  0.140286E-01  0.140286E-01
   7.115780  0.152868E-01  0.152868E-01
   7.142990  0.167360E-01  0.167360E-01
   7.170200  0.183736E-01  0.183736E-01
   7.197410  0.201999E-01  0.201999E-01
   7.224630  0.222181E-01  0.222181E-01
   7.251840  0.244299E-01  0.244299E-01
   7.279050  0.268370E-01  0.268370E-01
   7.306260  0.294337E-01  0.294337E-01
   7.333470  0.321956E-01  0.321956E-01
   7.360680  0.350559E-01  0.350559E-01
   7.387890  0.378840E-01  0.378840E-01
   7.415110  0.405118E-01  0.405118E-01
   7.442320  0.427932E-01  0.427932E-01
   7.469530  0.446411E-01  0.446411E-01
   7.496740  0.460129E-01  0.460129E-01
   7.523950  0.468942E-01  0.468942E-01
   7.551160  0.472926E-01  0.472926E-01
   7.578370  0.472386E-01  0.472386E-01
   7.605580  0.467962E-01  0.467962E-01
   7.632800  0.460788E-01  0.460788E-01
   7.660010  0.452478E-01  0.452478E-01
   7.687220  0.444814E-01  0.444814E-01
   7.714430  0.439555E-01  0.439555E-01
   7.741640  0.438505E-01  0.438505E-01
   7.768850  0.443641E-01  0.443641E-01
   7.796060  0.457017E-01  0.457017E-01
   7.823280  0.480001E-01  0.480001E-01
   7.850490  0.511522E-01  0.511522E-01
   7.877700  0.547189E-01  0.547189E-01
   7.904910  0.582117E-01  0.582117E-01
   7.932120  0.614620E-01  0.614620E-01
   7.959330  0.645937E-01  0.645937E-01
   7.986540  0.677681E-01  0.677681E-01
   8.013760  0.709441E-01  0.709441E-01
   8.040970  0.737859E-01  0.737859E-01
   8.068180  0.758509E-01  0.758509E-01
   8.095390  0.768597E-01  0.768597E-01
   8.122600  0.767608E-01  0.767608E-01
   8.149810  0.756241E-01  0.756241E-01
   8.177020  0.735621E-01  0.735621E-01
   8.204240  0.707150E-01  0.707150E-01
   8.231450  0.672663E-01  0.672663E-01
   8.258660  0.634365E-01  0.634365E-01
   8.285870  0.594612E-01  0.594612E-01
   8.313080  0.555489E-01  0.555489E-01
   8.340290  0.518520E-01  0.518520E-01
   8.367500  0.484568E-01  0.484568E-01
   8.394720  0.453920E-01  0.453920E-01
   8.421930  0.426530E-01  0.426530E-01
   8.449140  0.402152E-01  0.402152E-01
   8.476350  0.380506E-01  0.380506E-01
   8.503560  0.361316E-01  0.361316E-01
   8.530770  0.344297E-01  0.344297E-01
   8.557980  0.329149E-01  0.329149E-01
   8.585200  0.315574E-01  0.315574E-01
   8.612410  0.303328E-01  0.303328E-01
   8.639620  0.292200E-01  0.292200E-01
   8.666830  0.282025E-01  0.282025E-01
   8.694040  0.272658E-01  0.272658E-01
   8.721250  0.263967E-01  0.263967E-01
   8.748460  0.255829E-01  0.255829E-01
   8.775670  0.248139E-01  0.248139E-01
   8.802890  0.240816E-01  0.240816E-01
   8.830100  0.233810E-01  0.233810E-01
   8.857310  0.227087E-01  0.227087E-01
   8.884520  0.220641E-01  0.220641E-01
   8.911730  0.214490E-01  0.214490E-01
   8.938940  0.208675E-01  0.208675E-01
   8.966150  0.203246E-01  0.203246E-01
   8.993370  0.198244E-01  0.198244E-01
   9.020580  0.193679E-01  0.193679E-01
   9.047790  0.189517E-01  0.189517E-01
   9.075000  0.185696E-01  0.185696E-01
   9.102210  0.182143E-01  0.182143E-01
   9.129420  0.178787E-01  0.178787E-01
   9.156630  0.175573E-01  0.175573E-01
   9.183850  0.172470E-01  0.172470E-01
   9.211060  0.169472E-01  0.169472E-01
   9.238270  0.166594E-01  0.166594E-01
   9.265480  0.163870E-01  0.163870E-01
   9.292690  0.161343E-01  0.161343E-01
   9.319900  0.159043E-01  0.159043E-01
   9.347110  0.156975E-01  0.156975E-01
   9.374330  0.155111E-01  0.155111E-01
   9.401540  0.153402E-01  0.153402E-01
   9.428750  0.151791E-01  0.151791E-01
   9.455960  0.150233E-01  0.150233E-01
   9.483170  0.148696E-01  0.148696E-01
   9.510380  0.147161E-01  0.147161E-01
   9.537590  0.145615E-01  0.145615E-01
   9.564810  0.144052E-01  0.144052E-01
   9.592020  0.142472E-01  0.142472E-01
   9.619230  0.140875E-01  0.140875E-01
   9.646440  0.139261E-01  0.139261E-01
   9.673650  0.137632E-01  0.137632E-01
   9.700860  0.135990E-01  0.135990E-01
   9.728070  0.134335E-01  0.134335E-01
   9.755290  0.132669E-01  0.132669E-01
   9.782500  0.130998E-01  0.130998E-01
   9.809710  0.129331E-01  0.129331E-01
   9.836920  0.127684E-01  0.127684E-01
   9.864130  0.126081E-01  0.126081E-01
   9.891340  0.124551E-01  0.124551E-01
   9.918550  0.123124E-01  0.123124E-01
   9.945760  0.121832E-01  0.121832E-01
   9.972980  0.120705E-01  0.120705E-01
  10.000190  0.119777E-01  0.119777E-01
  10.027400  0.119089E-01  0.119089E-01
  10.054610  0.118690E-01  0.118690E-01
  10.081820  0.118648E-01  0.118648E-01
  10.109030  0.119064E-01  0.119064E-01
  10.136240  0.120088E-01  0.120088E-01
  10.163460  0.121957E-01  0.121957E-01
  10.190670  0.125047E-01  0.125047E-01
  10.217880  0.129929E-01  0.129929E-01
  10.245090  0.137343E-01  0.137343E-01
  10.272300  0.148013E-01  0.148013E-01
  10.299510  0.162174E-01  0.162174E-01
  10.326720  0.178777E-01  0.178777E-01
  10.353940  0.195016E-01  0.195016E-01
  10.381150  0.207232E-01  0.207232E-01
  10.408360  0.213109E-01  0.213109E-01
  10.435570  0.212987E-01  0.212987E-01
  10.462780  0.208816E-01  0.208816E-01
  10.489990  0.202403E-01  0.202403E-01
  10.517200  0.194843E-01  0.194843E-01
  10.544420  0.186736E-01  0.186736E-01
  10.571630  0.178467E-01  0.178467E-01
  10.598840  0.170309E-01  0.170309E-01
  10.626050  0.162493E-01  0.162493E-01
  10.653260  0.155212E-01  0.155212E-01
  10.680470  0.148613E-01  0.148613E-01
  10.707680  0.142766E-01  0.142766E-01
  10.734900  0.137647E-01  0.137647E-01
  10.762110  0.133157E-01  0.133157E-01
  10.789320  0.129169E-01  0.129169E-01
  10.816530  0.125575E-01  0.125575E-01
  10.843740  0.122303E-01  0.122303E-01
  10.870950  0.119310E-01  0.119310E-01
  10.898160  0.116579E-01  0.116579E-01
  10.925380  0.114098E-01  0.114098E-01
  10.952590  0.111859E-01  0.111859E-01
  10.979800  0.109843E-01  0.109843E-01
  11.007010  0.108026E-01  0.108026E-01
  11.034220  0.106378E-01  0.106378E-01
  11.061430  0.104864E-01  0.104864E-01
  11.088640  0.103452E-01  0.103452E-01
  11.115850  0.102116E-01  0.102116E-01
  11.143070  0.100835E-01  0.100835E-01
  11.170280  0.995930E-02  0.995930E-02
  11.197490  0.983792E-02  0.983792E-02
  11.224700  0.971853E-02  0.971853E-02
  11.251910  0.960067E-02  0.960067E-02
  11.279120  0.948419E-02  0.948419E-02
  11.306330  0.936929E-02  0.936929E-02
  11.333550  0.925661E-02  0.925661E-02
  11.360760  0.914740E-02  0.914740E-02
  11.387970  0.904350E-02  0.904350E-02
  11.415180  0.894759E-02  0.894759E-02
  11.442390  0.886340E-02  0.886340E-02
  11.469600  0.879567E-02  0.879567E-02
  11.496810  0.875006E-02  0.875006E-02
  11.524030  0.873297E-02  0.873297E-02
  11.551240  0.875211E-02  0.875211E-02
  11.578450  0.881767E-02  0.881767E-02
  11.605660  0.894292E-02  0.894292E-02
  11.632870  0.914333E-02  0.914333E-02
  11.660080  0.943353E-02  0.943353E-02
  11.687290  0.982144E-02  0.982144E-02
  11.714510  0.103006E-01  0.103006E-01
  11.741720  0.108425E-01  0.108425E-01
  11.768930  0.113916E-01  0.113916E-01
  11.796140  0.118607E-01  0.118607E-01
  11.823350  0.121455E-01  0.121455E-01
  11.850560  0.121841E-01  0.121841E-01
  11.877770  0.120063E-01  0.120063E-01
  11.904990  0.116935E-01  0.116935E-01
  11.932200  0.113156E-01  0.113156E-01
  11.959410  0.109147E-01  0.109147E-01
  11.986620  0.105144E-01  0.105144E-01
  12.013830  0.101290E-01  0.101290E-01
  12.041040  0.976756E-02  0.976756E-02
  12.068250  0.943567E-02  0.943567E-02
  12.095470  0.913618E-02  0.913618E-02
  12.122680  0.887012E-02  0.887012E-02
  12.149890  0.863622E-02  0.863622E-02
  12.177100  0.843157E-02  0.843157E-02
  12.204310  0.825193E-02  0.825193E-02
  12.231520  0.809257E-02  0.809257E-02
  12.258730  0.794908E-02  0.794908E-02
  12.285940  0.781782E-02  0.781782E-02
  12.313160  0.769593E-02  0.769593E-02
  12.340370  0.758137E-02  0.758137E-02
  12.367580  0.747247E-02  0.747247E-02
  12.394790  0.736801E-02  0.736801E-02
  12.422000  0.726698E-02  0.726698E-02
  12.449210  0.716855E-02  0.716855E-02
  12.476420  0.707195E-02  0.707195E-02
  12.503640  0.697644E-02  0.697644E-02
  12.530850  0.688147E-02  0.688147E-02
  12.558060  0.678650E-02  0.678650E-02
  12.585270  0.669121E-02  0.669121E-02
  12.612480  0.659555E-02  0.659555E-02
  12.639690  0.649980E-02  0.649980E-02
  12.666900  0.640485E-02  0.640485E-02
  12.694120  0.631218E-02  0.631218E-02
  12.721330  0.622339E-02  0.622339E-02
  12.748540  0.613930E-02  0.613930E-02
  12.775750  0.606017E-02  0.606017E-02
  12.802960  0.598603E-02  0.598603E-02
  12.830170  0.591667E-02  0.591667E-02
  12.857380  0.585150E-02  0.585150E-02
  12.884600  0.578974E-02  0.578974E-02
  12.911810  0.573074E-02  0.573074E-02
  12.939020  0.567401E-02  0.567401E-02
  12.966230  0.561931E-02  0.561931E-02
  12.993440  0.556632E-02  0.556632E-02
  13.020650  0.551451E-02  0.551451E-02
  13.047860  0.546317E-02  0.546317E-02
  13.075080  0.541163E-02  0.541163E-02
  13.102290  0.535937E-02  0.535937E-02
  13.129500  0.530594E-02  0.530594E-02
  13.156710  0.525097E-02  0.525097E-02
  13.183920  0.519419E-02  0.519419E-02
  13.211130  0.513536E-02  0.513536E-02
  13.238340  0.507428E-02  0.507428E-02
  13.265560  0.501067E-02  0.501067E-02
  13.292770  0.494412E-02  0.494412E-02
  13.319980  0.487393E-02  0.487393E-02
  13.347190  0.479907E-02  0.479907E-02
  13.374400  0.471796E-02  0.471796E-02
  13.401610  0.462815E-02  0.462815E-02
  13.428820  0.452583E-02  0.452583E-02
  13.456030  0.440536E-02  0.440536E-02
  13.483250  0.425871E-02  0.425871E-02
  13.510460  0.407521E-02  0.407521E-02
  13.537670  0.384183E-02  0.384183E-02
  13.564880  0.354808E-02  0.354808E-02
