#                                                                                
# Lorentzian broadening with gamma= 0.100000  [eV]
# Im(epsilon) shifted by   0.0000   [eV]
# No intraband contributions added
#
# Energy [eV]  ref_ind_xx  ref_ind_zz  extinct_xx  extinct_zz
   0.013610  0.146188E+01  0.146188E+01  0.141683E-01  0.141683E-01
   0.040820  0.146220E+01  0.146220E+01  0.148057E-01  0.148057E-01
   0.068030  0.146284E+01  0.146284E+01  0.154883E-01  0.154883E-01
   0.095240  0.146380E+01  0.146380E+01  0.162209E-01  0.162209E-01
   0.122450  0.146508E+01  0.146508E+01  0.170093E-01  0.170093E-01
   0.149660  0.146670E+01  0.146670E+01  0.178600E-01  0.178600E-01
   0.176870  0.146867E+01  0.146867E+01  0.187806E-01  0.187806E-01
   0.204090  0.147099E+01  0.147099E+01  0.197805E-01  0.197805E-01
   0.231300  0.147369E+01  0.147369E+01  0.208694E-01  0.208694E-01
   0.258510  0.147677E+01  0.147677E+01  0.220601E-01  0.220601E-01
   0.285720  0.148027E+01  0.148027E+01  0.233675E-01  0.233675E-01
   0.312930  0.148421E+01  0.148421E+01  0.248096E-01  0.248096E-01
   0.340140  0.148861E+01  0.148861E+01  0.264081E-01  0.264081E-01
   0.367350  0.149351E+01  0.149351E+01  0.281899E-01  0.281899E-01
   0.394570  0.149896E+01  0.149896E+01  0.301891E-01  0.301891E-01
   0.421780  0.150499E+01  0.150499E+01  0.324460E-01  0.324460E-01
   0.448990  0.151167E+01  0.151167E+01  0.350146E-01  0.350146E-01
   0.476200  0.151905E+01  0.151905E+01  0.379641E-01  0.379641E-01
   0.503410  0.152722E+01  0.152722E+01  0.413854E-01  0.413854E-01
   0.530620  0.153625E+01  0.153625E+01  0.454003E-01  0.454003E-01
   0.557830  0.154622E+01  0.154622E+01  0.501752E-01  0.501752E-01
   0.585040  0.155724E+01  0.155724E+01  0.559406E-01  0.559406E-01
   0.612260  0.156937E+01  0.156937E+01  0.630219E-01  0.630219E-01
   0.639470  0.158260E+01  0.158260E+01  0.718617E-01  0.718617E-01
   0.666680  0.159675E+01  0.159675E+01  0.830561E-01  0.830561E-01
   0.693890  0.161134E+01  0.161134E+01  0.972907E-01  0.972907E-01
   0.721100  0.162533E+01  0.162533E+01  0.115093E+00  0.115093E+00
   0.748310  0.163732E+01  0.163732E+01  0.136358E+00  0.136358E+00
   0.775520  0.164608E+01  0.164608E+01  0.160056E+00  0.160056E+00
   0.802740  0.165128E+01  0.165128E+01  0.184630E+00  0.184630E+00
   0.829950  0.165354E+01  0.165354E+01  0.208722E+00  0.208722E+00
   0.857160  0.165409E+01  0.165409E+01  0.231784E+00  0.231784E+00
   0.884370  0.165408E+01  0.165408E+01  0.254211E+00  0.254211E+00
   0.911580  0.165394E+01  0.165394E+01  0.277046E+00  0.277046E+00
   0.938790  0.165317E+01  0.165317E+01  0.301299E+00  0.301299E+00
   0.966000  0.165070E+01  0.165070E+01  0.327337E+00  0.327337E+00
   0.993220  0.164542E+01  0.164542E+01  0.354763E+00  0.354763E+00
   1.020430  0.163664E+01  0.163664E+01  0.382616E+00  0.382616E+00
   1.047640  0.162424E+01  0.162424E+01  0.409753E+00  0.409753E+00
   1.074850  0.160866E+01  0.160866E+01  0.435181E+00  0.435181E+00
   1.102060  0.159060E+01  0.159060E+01  0.458311E+00  0.458311E+00
   1.129270  0.157076E+01  0.157076E+01  0.478909E+00  0.478909E+00
   1.156480  0.154970E+01  0.154970E+01  0.496924E+00  0.496924E+00
   1.183700  0.152786E+01  0.152786E+01  0.512350E+00  0.512350E+00
   1.210910  0.150574E+01  0.150574E+01  0.525170E+00  0.525170E+00
   1.238120  0.148386E+01  0.148386E+01  0.535470E+00  0.535470E+00
   1.265330  0.146278E+01  0.146278E+01  0.543540E+00  0.543540E+00
   1.292540  0.144294E+01  0.144294E+01  0.549914E+00  0.549914E+00
   1.319750  0.142446E+01  0.142446E+01  0.555249E+00  0.555249E+00
   1.346960  0.140715E+01  0.140715E+01  0.560115E+00  0.560115E+00
   1.374180  0.139068E+01  0.139068E+01  0.564887E+00  0.564887E+00
   1.401390  0.137461E+01  0.137461E+01  0.569729E+00  0.569729E+00
   1.428600  0.135852E+01  0.135852E+01  0.574584E+00  0.574584E+00
   1.455810  0.134207E+01  0.134207E+01  0.579137E+00  0.579137E+00
   1.483020  0.132520E+01  0.132520E+01  0.582870E+00  0.582870E+00
   1.510230  0.130832E+01  0.130832E+01  0.585365E+00  0.585365E+00
   1.537440  0.129200E+01  0.129200E+01  0.586618E+00  0.586618E+00
   1.564660  0.127663E+01  0.127663E+01  0.586977E+00  0.586977E+00
   1.591870  0.126231E+01  0.126231E+01  0.586876E+00  0.586876E+00
   1.619080  0.124895E+01  0.124895E+01  0.586656E+00  0.586656E+00
   1.646290  0.123633E+01  0.123633E+01  0.586499E+00  0.586499E+00
   1.673500  0.122433E+01  0.122433E+01  0.586465E+00  0.586465E+00
   1.700710  0.121287E+01  0.121287E+01  0.586598E+00  0.586598E+00
   1.727920  0.120191E+01  0.120191E+01  0.586993E+00  0.586993E+00
   1.755130  0.119133E+01  0.119133E+01  0.587745E+00  0.587745E+00
   1.782350  0.118102E+01  0.118102E+01  0.588904E+00  0.588904E+00
   1.809560  0.117090E+01  0.117090E+01  0.590512E+00  0.590512E+00
   1.836770  0.116085E+01  0.116085E+01  0.592627E+00  0.592627E+00
   1.863980  0.115074E+01  0.115074E+01  0.595302E+00  0.595302E+00
   1.891190  0.114041E+01  0.114041E+01  0.598548E+00  0.598548E+00
   1.918400  0.112970E+01  0.112970E+01  0.602342E+00  0.602342E+00
   1.945610  0.111847E+01  0.111847E+01  0.606633E+00  0.606633E+00
   1.972830  0.110657E+01  0.110657E+01  0.611369E+00  0.611369E+00
   2.000040  0.109386E+01  0.109386E+01  0.616482E+00  0.616482E+00
   2.027250  0.108018E+01  0.108018E+01  0.621883E+00  0.621883E+00
   2.054460  0.106532E+01  0.106532E+01  0.627410E+00  0.627410E+00
   2.081670  0.104915E+01  0.104915E+01  0.632808E+00  0.632808E+00
   2.108880  0.103162E+01  0.103162E+01  0.637771E+00  0.637771E+00
   2.136090  0.101279E+01  0.101279E+01  0.642011E+00  0.642011E+00
   2.163310  0.992792E+00  0.992792E+00  0.645312E+00  0.645312E+00
   2.190520  0.971777E+00  0.971777E+00  0.647523E+00  0.647523E+00
   2.217730  0.949871E+00  0.949871E+00  0.648535E+00  0.648535E+00
   2.244940  0.927190E+00  0.927190E+00  0.648259E+00  0.648259E+00
   2.272150  0.903841E+00  0.903841E+00  0.646618E+00  0.646618E+00
   2.299360  0.879931E+00  0.879931E+00  0.643542E+00  0.643542E+00
   2.326570  0.855563E+00  0.855563E+00  0.638981E+00  0.638981E+00
   2.353790  0.830798E+00  0.830798E+00  0.632917E+00  0.632917E+00
   2.381000  0.805634E+00  0.805634E+00  0.625330E+00  0.625330E+00
   2.408210  0.779952E+00  0.779952E+00  0.616068E+00  0.616068E+00
   2.435420  0.753685E+00  0.753685E+00  0.604751E+00  0.604751E+00
   2.462630  0.727036E+00  0.727036E+00  0.590812E+00  0.590812E+00
   2.489840  0.700607E+00  0.700607E+00  0.573771E+00  0.573771E+00
   2.517050  0.675221E+00  0.675221E+00  0.553523E+00  0.553523E+00
   2.544270  0.651591E+00  0.651591E+00  0.530333E+00  0.530333E+00
   2.571480  0.630200E+00  0.630200E+00  0.504663E+00  0.504663E+00
   2.598690  0.611277E+00  0.611277E+00  0.476931E+00  0.476931E+00
   2.625900  0.594958E+00  0.594958E+00  0.447443E+00  0.447443E+00
   2.653110  0.581404E+00  0.581404E+00  0.416408E+00  0.416408E+00
   2.680320  0.570868E+00  0.570868E+00  0.384006E+00  0.384006E+00
   2.707530  0.563729E+00  0.563729E+00  0.350486E+00  0.350486E+00
   2.734750  0.560464E+00  0.560464E+00  0.316283E+00  0.316283E+00
   2.761960  0.561502E+00  0.561502E+00  0.282203E+00  0.282203E+00
   2.789170  0.566947E+00  0.566947E+00  0.249325E+00  0.249325E+00
   2.816380  0.576377E+00  0.576377E+00  0.218808E+00  0.218808E+00
   2.843590  0.588870E+00  0.588870E+00  0.191507E+00  0.191507E+00
   2.870800  0.603316E+00  0.603316E+00  0.167752E+00  0.167752E+00
   2.898010  0.618746E+00  0.618746E+00  0.147423E+00  0.147423E+00
   2.925220  0.634458E+00  0.634458E+00  0.130169E+00  0.130169E+00
   2.952440  0.650000E+00  0.650000E+00  0.115577E+00  0.115577E+00
   2.979650  0.665065E+00  0.665065E+00  0.103265E+00  0.103265E+00
   3.006860  0.679474E+00  0.679474E+00  0.928664E-01  0.928664E-01
   3.034070  0.693119E+00  0.693119E+00  0.840505E-01  0.840505E-01
   3.061280  0.705969E+00  0.705969E+00  0.765211E-01  0.765211E-01
   3.088490  0.718048E+00  0.718048E+00  0.700357E-01  0.700357E-01
   3.115700  0.729409E+00  0.729409E+00  0.644127E-01  0.644127E-01
   3.142920  0.740109E+00  0.740109E+00  0.595180E-01  0.595180E-01
   3.170130  0.750189E+00  0.750189E+00  0.552559E-01  0.552559E-01
   3.197340  0.759688E+00  0.759688E+00  0.515469E-01  0.515469E-01
   3.224550  0.768627E+00  0.768627E+00  0.483252E-01  0.483252E-01
   3.251760  0.777016E+00  0.777016E+00  0.455246E-01  0.455246E-01
   3.278970  0.784863E+00  0.784863E+00  0.430658E-01  0.430658E-01
   3.306180  0.792196E+00  0.792196E+00  0.408594E-01  0.408594E-01
   3.333400  0.799072E+00  0.799072E+00  0.388276E-01  0.388276E-01
   3.360610  0.805550E+00  0.805550E+00  0.369208E-01  0.369208E-01
   3.387820  0.811699E+00  0.811699E+00  0.351107E-01  0.351107E-01
   3.415030  0.817574E+00  0.817574E+00  0.333879E-01  0.333879E-01
   3.442240  0.823219E+00  0.823219E+00  0.317569E-01  0.317569E-01
   3.469450  0.828663E+00  0.828663E+00  0.302292E-01  0.302292E-01
   3.496660  0.833920E+00  0.833920E+00  0.288139E-01  0.288139E-01
   3.523880  0.838999E+00  0.838999E+00  0.275139E-01  0.275139E-01
   3.551090  0.843901E+00  0.843901E+00  0.263293E-01  0.263293E-01
   3.578300  0.848631E+00  0.848631E+00  0.252565E-01  0.252565E-01
   3.605510  0.853190E+00  0.853190E+00  0.242893E-01  0.242893E-01
   3.632720  0.857580E+00  0.857580E+00  0.234175E-01  0.234175E-01
   3.659930  0.861806E+00  0.861806E+00  0.226292E-01  0.226292E-01
   3.687140  0.865875E+00  0.865875E+00  0.219128E-01  0.219128E-01
   3.714360  0.869799E+00  0.869799E+00  0.212581E-01  0.212581E-01
   3.741570  0.873583E+00  0.873583E+00  0.206575E-01  0.206575E-01
   3.768780  0.877240E+00  0.877240E+00  0.201040E-01  0.201040E-01
   3.795990  0.880780E+00  0.880780E+00  0.195918E-01  0.195918E-01
   3.823200  0.884212E+00  0.884212E+00  0.191164E-01  0.191164E-01
   3.850410  0.887548E+00  0.887548E+00  0.186743E-01  0.186743E-01
   3.877620  0.890799E+00  0.890799E+00  0.182640E-01  0.182640E-01
   3.904840  0.893976E+00  0.893976E+00  0.178858E-01  0.178858E-01
   3.932050  0.897087E+00  0.897087E+00  0.175428E-01  0.175428E-01
   3.959260  0.900142E+00  0.900142E+00  0.172404E-01  0.172404E-01
   3.986470  0.903146E+00  0.903146E+00  0.169862E-01  0.169862E-01
   4.013680  0.906101E+00  0.906101E+00  0.167882E-01  0.167882E-01
   4.040890  0.909004E+00  0.909004E+00  0.166526E-01  0.166526E-01
   4.068100  0.911851E+00  0.911851E+00  0.165826E-01  0.165826E-01
   4.095310  0.914636E+00  0.914636E+00  0.165787E-01  0.165787E-01
   4.122530  0.917358E+00  0.917358E+00  0.166392E-01  0.166392E-01
   4.149740  0.920010E+00  0.920010E+00  0.167614E-01  0.167614E-01
   4.176950  0.922593E+00  0.922593E+00  0.169417E-01  0.169417E-01
   4.204160  0.925104E+00  0.925104E+00  0.171762E-01  0.171762E-01
   4.231370  0.927543E+00  0.927543E+00  0.174604E-01  0.174604E-01
   4.258580  0.929909E+00  0.929909E+00  0.177900E-01  0.177900E-01
   4.285790  0.932204E+00  0.932204E+00  0.181597E-01  0.181597E-01
   4.313010  0.934428E+00  0.934428E+00  0.185646E-01  0.185646E-01
   4.340220  0.936582E+00  0.936582E+00  0.189982E-01  0.189982E-01
   4.367430  0.938670E+00  0.938670E+00  0.194543E-01  0.194543E-01
   4.394640  0.940695E+00  0.940695E+00  0.199259E-01  0.199259E-01
   4.421850  0.942664E+00  0.942664E+00  0.204059E-01  0.204059E-01
   4.449060  0.944584E+00  0.944584E+00  0.208873E-01  0.208873E-01
   4.476270  0.946467E+00  0.946467E+00  0.213631E-01  0.213631E-01
   4.503490  0.948325E+00  0.948325E+00  0.218269E-01  0.218269E-01
   4.530700  0.950173E+00  0.950173E+00  0.222723E-01  0.222723E-01
   4.557910  0.952035E+00  0.952035E+00  0.226948E-01  0.226948E-01
   4.585120  0.953938E+00  0.953938E+00  0.230925E-01  0.230925E-01
   4.612330  0.955918E+00  0.955918E+00  0.234695E-01  0.234695E-01
   4.639540  0.958021E+00  0.958021E+00  0.238418E-01  0.238418E-01
   4.666750  0.960299E+00  0.960299E+00  0.242455E-01  0.242455E-01
   4.693970  0.962796E+00  0.962796E+00  0.247384E-01  0.247384E-01
   4.721180  0.965548E+00  0.965548E+00  0.253960E-01  0.253960E-01
   4.748390  0.968580E+00  0.968580E+00  0.263122E-01  0.263122E-01
   4.775600  0.971909E+00  0.971909E+00  0.276064E-01  0.276064E-01
   4.802810  0.975527E+00  0.975527E+00  0.294373E-01  0.294373E-01
   4.830020  0.979377E+00  0.979377E+00  0.320158E-01  0.320158E-01
   4.857230  0.983297E+00  0.983297E+00  0.356018E-01  0.356018E-01
   4.884450  0.986943E+00  0.986943E+00  0.404477E-01  0.404477E-01
   4.911660  0.989755E+00  0.989755E+00  0.466377E-01  0.466377E-01
   4.938870  0.991105E+00  0.991105E+00  0.539276E-01  0.539276E-01
   4.966080  0.990544E+00  0.990544E+00  0.617475E-01  0.617475E-01
   4.993290  0.987931E+00  0.987931E+00  0.693996E-01  0.693996E-01
   5.020500  0.983388E+00  0.983388E+00  0.762017E-01  0.762017E-01
   5.047710  0.977278E+00  0.977278E+00  0.815197E-01  0.815197E-01
   5.074930  0.970253E+00  0.970253E+00  0.848864E-01  0.848864E-01
   5.102140  0.963159E+00  0.963159E+00  0.862187E-01  0.862187E-01
   5.129350  0.956702E+00  0.956702E+00  0.858948E-01  0.858948E-01
   5.156560  0.951190E+00  0.951190E+00  0.845052E-01  0.845052E-01
   5.183770  0.946594E+00  0.946594E+00  0.825201E-01  0.825201E-01
   5.210980  0.942793E+00  0.942793E+00  0.802035E-01  0.802035E-01
   5.238190  0.939694E+00  0.939694E+00  0.777316E-01  0.777316E-01
   5.265400  0.937188E+00  0.937188E+00  0.752496E-01  0.752496E-01
   5.292620  0.935149E+00  0.935149E+00  0.728496E-01  0.728496E-01
   5.319830  0.933461E+00  0.933461E+00  0.705750E-01  0.705750E-01
   5.347040  0.932031E+00  0.932031E+00  0.684364E-01  0.684364E-01
   5.374250  0.930783E+00  0.930783E+00  0.664337E-01  0.664337E-01
   5.401460  0.929645E+00  0.929645E+00  0.645580E-01  0.645580E-01
   5.428670  0.928546E+00  0.928546E+00  0.627766E-01  0.627766E-01
   5.455880  0.927442E+00  0.927442E+00  0.610258E-01  0.610258E-01
   5.483100  0.926333E+00  0.926333E+00  0.592342E-01  0.592342E-01
   5.510310  0.925259E+00  0.925259E+00  0.573657E-01  0.573657E-01
   5.537520  0.924244E+00  0.924244E+00  0.554186E-01  0.554186E-01
   5.564730  0.923296E+00  0.923296E+00  0.533901E-01  0.533901E-01
   5.591940  0.922425E+00  0.922425E+00  0.512617E-01  0.512617E-01
   5.619150  0.921661E+00  0.921661E+00  0.490182E-01  0.490182E-01
   5.646360  0.921047E+00  0.921047E+00  0.466679E-01  0.466679E-01
   5.673580  0.920611E+00  0.920611E+00  0.442393E-01  0.442393E-01
   5.700790  0.920363E+00  0.920363E+00  0.417658E-01  0.417658E-01
   5.728000  0.920306E+00  0.920306E+00  0.392712E-01  0.392712E-01
   5.755210  0.920441E+00  0.920441E+00  0.367787E-01  0.367787E-01
   5.782420  0.920768E+00  0.920768E+00  0.343140E-01  0.343140E-01
   5.809630  0.921277E+00  0.921277E+00  0.319024E-01  0.319024E-01
   5.836840  0.921954E+00  0.921954E+00  0.295639E-01  0.295639E-01
   5.864060  0.922784E+00  0.922784E+00  0.273112E-01  0.273112E-01
   5.891270  0.923751E+00  0.923751E+00  0.251552E-01  0.251552E-01
   5.918480  0.924847E+00  0.924847E+00  0.231036E-01  0.231036E-01
   5.945690  0.926060E+00  0.926060E+00  0.211665E-01  0.211665E-01
   5.972900  0.927378E+00  0.927378E+00  0.193563E-01  0.193563E-01
   6.000110  0.928785E+00  0.928785E+00  0.176845E-01  0.176845E-01
   6.027320  0.930258E+00  0.930258E+00  0.161592E-01  0.161592E-01
   6.054540  0.931775E+00  0.931775E+00  0.147815E-01  0.147815E-01
   6.081750  0.933313E+00  0.933313E+00  0.135473E-01  0.135473E-01
   6.108960  0.934853E+00  0.934853E+00  0.124464E-01  0.124464E-01
   6.136170  0.936384E+00  0.936384E+00  0.114679E-01  0.114679E-01
   6.163380  0.937894E+00  0.937894E+00  0.106004E-01  0.106004E-01
   6.190590  0.939376E+00  0.939376E+00  0.983298E-02  0.983298E-02
   6.217800  0.940825E+00  0.940825E+00  0.915480E-02  0.915480E-02
   6.245020  0.942237E+00  0.942237E+00  0.855494E-02  0.855494E-02
   6.272230  0.943609E+00  0.943609E+00  0.802321E-02  0.802321E-02
   6.299440  0.944941E+00  0.944941E+00  0.754943E-02  0.754943E-02
   6.326650  0.946235E+00  0.946235E+00  0.712494E-02  0.712494E-02
   6.353860  0.947495E+00  0.947495E+00  0.674301E-02  0.674301E-02
   6.381070  0.948723E+00  0.948723E+00  0.639898E-02  0.639898E-02
   6.408280  0.949924E+00  0.949924E+00  0.608995E-02  0.608995E-02
   6.435490  0.951099E+00  0.951099E+00  0.581383E-02  0.581383E-02
   6.462710  0.952250E+00  0.952250E+00  0.556860E-02  0.556860E-02
   6.489920  0.953378E+00  0.953378E+00  0.535245E-02  0.535245E-02
   6.517130  0.954484E+00  0.954484E+00  0.516340E-02  0.516340E-02
   6.544340  0.955568E+00  0.955568E+00  0.499968E-02  0.499968E-02
   6.571550  0.956633E+00  0.956633E+00  0.485949E-02  0.485949E-02
   6.598760  0.957678E+00  0.957678E+00  0.474076E-02  0.474076E-02
   6.625970  0.958706E+00  0.958706E+00  0.464135E-02  0.464135E-02
   6.653190  0.959719E+00  0.959719E+00  0.455927E-02  0.455927E-02
   6.680400  0.960719E+00  0.960719E+00  0.449308E-02  0.449308E-02
   6.707610  0.961709E+00  0.961709E+00  0.444186E-02  0.444186E-02
   6.734820  0.962692E+00  0.962692E+00  0.440527E-02  0.440527E-02
   6.762030  0.963671E+00  0.963671E+00  0.438351E-02  0.438351E-02
   6.789240  0.964649E+00  0.964649E+00  0.437730E-02  0.437730E-02
   6.816450  0.965630E+00  0.965630E+00  0.438795E-02  0.438795E-02
   6.843670  0.966617E+00  0.966617E+00  0.441744E-02  0.441744E-02
   6.870880  0.967614E+00  0.967614E+00  0.446859E-02  0.446859E-02
   6.898090  0.968625E+00  0.968625E+00  0.454538E-02  0.454538E-02
   6.925300  0.969652E+00  0.969652E+00  0.465337E-02  0.465337E-02
   6.952510  0.970701E+00  0.970701E+00  0.480024E-02  0.480024E-02
   6.979720  0.971771E+00  0.971771E+00  0.499631E-02  0.499631E-02
   7.006930  0.972863E+00  0.972863E+00  0.525452E-02  0.525452E-02
   7.034150  0.973969E+00  0.973969E+00  0.558889E-02  0.558889E-02
   7.061360  0.975076E+00  0.975076E+00  0.601050E-02  0.601050E-02
   7.088570  0.976168E+00  0.976168E+00  0.652524E-02  0.652524E-02
   7.115780  0.977231E+00  0.977231E+00  0.713385E-02  0.713385E-02
   7.142990  0.978254E+00  0.978254E+00  0.783489E-02  0.783489E-02
   7.170200  0.979224E+00  0.979224E+00  0.862737E-02  0.862737E-02
   7.197410  0.980133E+00  0.980133E+00  0.951165E-02  0.951165E-02
   7.224630  0.980968E+00  0.980968E+00  0.104892E-01  0.104892E-01
   7.251840  0.981711E+00  0.981711E+00  0.115602E-01  0.115602E-01
   7.279050  0.982343E+00  0.982343E+00  0.127244E-01  0.127244E-01
   7.306260  0.982834E+00  0.982834E+00  0.139775E-01  0.139775E-01
   7.333470  0.983148E+00  0.983148E+00  0.153050E-01  0.153050E-01
   7.360680  0.983243E+00  0.983243E+00  0.166711E-01  0.166711E-01
   7.387890  0.983089E+00  0.983089E+00  0.180092E-01  0.180092E-01
   7.415110  0.982694E+00  0.982694E+00  0.192371E-01  0.192371E-01
   7.442320  0.982107E+00  0.982107E+00  0.202858E-01  0.202858E-01
   7.469530  0.981390E+00  0.981390E+00  0.211170E-01  0.211170E-01
   7.496740  0.980608E+00  0.980608E+00  0.217151E-01  0.217151E-01
   7.523950  0.979820E+00  0.979820E+00  0.220785E-01  0.220785E-01
   7.551160  0.979084E+00  0.979084E+00  0.222162E-01  0.222162E-01
   7.578370  0.978458E+00  0.978458E+00  0.221482E-01  0.221482E-01
   7.605580  0.978000E+00  0.978000E+00  0.219095E-01  0.219095E-01
   7.632800  0.977762E+00  0.977762E+00  0.215572E-01  0.215572E-01
   7.660010  0.977777E+00  0.977777E+00  0.211687E-01  0.211687E-01
   7.687220  0.978050E+00  0.978050E+00  0.208269E-01  0.208269E-01
   7.714430  0.978566E+00  0.978566E+00  0.206129E-01  0.206129E-01
   7.741640  0.979296E+00  0.979296E+00  0.206097E-01  0.206097E-01
   7.768850  0.980186E+00  0.980186E+00  0.209085E-01  0.209085E-01
   7.796060  0.981132E+00  0.981132E+00  0.216026E-01  0.216026E-01
   7.823280  0.981959E+00  0.981959E+00  0.227488E-01  0.227488E-01
   7.850490  0.982438E+00  0.982438E+00  0.242818E-01  0.242818E-01
   7.877700  0.982429E+00  0.982429E+00  0.259787E-01  0.259787E-01
   7.904910  0.981993E+00  0.981993E+00  0.276053E-01  0.276053E-01
   7.932120  0.981292E+00  0.981292E+00  0.290894E-01  0.290894E-01
   7.959330  0.980411E+00  0.980411E+00  0.304948E-01  0.304948E-01
   7.986540  0.979304E+00  0.979304E+00  0.318910E-01  0.318910E-01
   8.013760  0.977847E+00  0.977847E+00  0.332432E-01  0.332432E-01
   8.040970  0.975971E+00  0.975971E+00  0.343821E-01  0.343821E-01
   8.068180  0.973752E+00  0.973752E+00  0.351078E-01  0.351078E-01
   8.095390  0.971369E+00  0.971369E+00  0.353158E-01  0.353158E-01
   8.122600  0.969000E+00  0.969000E+00  0.350118E-01  0.350118E-01
   8.149810  0.966769E+00  0.966769E+00  0.342521E-01  0.342521E-01
   8.177020  0.964764E+00  0.964764E+00  0.331063E-01  0.331063E-01
   8.204240  0.963054E+00  0.963054E+00  0.316499E-01  0.316499E-01
   8.231450  0.961690E+00  0.961690E+00  0.299720E-01  0.299720E-01
   8.258660  0.960694E+00  0.960694E+00  0.281716E-01  0.281716E-01
   8.285870  0.960057E+00  0.960057E+00  0.263481E-01  0.263481E-01
   8.313080  0.959739E+00  0.959739E+00  0.245853E-01  0.245853E-01
   8.340290  0.959680E+00  0.959680E+00  0.229409E-01  0.229409E-01
   8.367500  0.959817E+00  0.959817E+00  0.214449E-01  0.214449E-01
   8.394720  0.960092E+00  0.960092E+00  0.201033E-01  0.201033E-01
   8.421930  0.960460E+00  0.960460E+00  0.189101E-01  0.189101E-01
   8.449140  0.960888E+00  0.960888E+00  0.178516E-01  0.178516E-01
   8.476350  0.961355E+00  0.961355E+00  0.169142E-01  0.169142E-01
   8.503560  0.961841E+00  0.961841E+00  0.160846E-01  0.160846E-01
   8.530770  0.962333E+00  0.962333E+00  0.153497E-01  0.153497E-01
   8.557980  0.962820E+00  0.962820E+00  0.146960E-01  0.146960E-01
   8.585200  0.963298E+00  0.963298E+00  0.141104E-01  0.141104E-01
   8.612410  0.963761E+00  0.963761E+00  0.135820E-01  0.135820E-01
   8.639620  0.964209E+00  0.964209E+00  0.131016E-01  0.131016E-01
   8.666830  0.964643E+00  0.964643E+00  0.126621E-01  0.126621E-01
   8.694040  0.965060E+00  0.965060E+00  0.122572E-01  0.122572E-01
   8.721250  0.965462E+00  0.965462E+00  0.118811E-01  0.118811E-01
   8.748460  0.965850E+00  0.965850E+00  0.115285E-01  0.115285E-01
   8.775670  0.966225E+00  0.966225E+00  0.111948E-01  0.111948E-01
   8.802890  0.966590E+00  0.966590E+00  0.108766E-01  0.108766E-01
   8.830100  0.966947E+00  0.966947E+00  0.105717E-01  0.105717E-01
   8.857310  0.967300E+00  0.967300E+00  0.102788E-01  0.102788E-01
   8.884520  0.967650E+00  0.967650E+00  0.999778E-02  0.999778E-02
   8.911730  0.968001E+00  0.968001E+00  0.972952E-02  0.972952E-02
   8.938940  0.968353E+00  0.968353E+00  0.947596E-02  0.947596E-02
   8.966150  0.968705E+00  0.968705E+00  0.923944E-02  0.923944E-02
   8.993370  0.969055E+00  0.969055E+00  0.902174E-02  0.902174E-02
   9.020580  0.969401E+00  0.969401E+00  0.882336E-02  0.882336E-02
   9.047790  0.969738E+00  0.969738E+00  0.864272E-02  0.864272E-02
   9.075000  0.970066E+00  0.970066E+00  0.847702E-02  0.847702E-02
   9.102210  0.970382E+00  0.970382E+00  0.832289E-02  0.832289E-02
   9.129420  0.970688E+00  0.970688E+00  0.817721E-02  0.817721E-02
   9.156630  0.970984E+00  0.970984E+00  0.803757E-02  0.803757E-02
   9.183850  0.971274E+00  0.971274E+00  0.790255E-02  0.790255E-02
   9.211060  0.971560E+00  0.971560E+00  0.777199E-02  0.777199E-02
   9.238270  0.971843E+00  0.971843E+00  0.764663E-02  0.764663E-02
   9.265480  0.972124E+00  0.972124E+00  0.752813E-02  0.752813E-02
   9.292690  0.972403E+00  0.972403E+00  0.741837E-02  0.741837E-02
   9.319900  0.972678E+00  0.972678E+00  0.731880E-02  0.731880E-02
   9.347110  0.972947E+00  0.972947E+00  0.722963E-02  0.722963E-02
   9.374330  0.973208E+00  0.973208E+00  0.714953E-02  0.714953E-02
   9.401540  0.973459E+00  0.973459E+00  0.707621E-02  0.707621E-02
   9.428750  0.973701E+00  0.973701E+00  0.700710E-02  0.700710E-02
   9.455960  0.973933E+00  0.973933E+00  0.694013E-02  0.694013E-02
   9.483170  0.974158E+00  0.974158E+00  0.687387E-02  0.687387E-02
   9.510380  0.974376E+00  0.974376E+00  0.680744E-02  0.680744E-02
   9.537590  0.974589E+00  0.974589E+00  0.674034E-02  0.674034E-02
   9.564810  0.974799E+00  0.974799E+00  0.667230E-02  0.667230E-02
   9.592020  0.975005E+00  0.975005E+00  0.660330E-02  0.660330E-02
   9.619230  0.975209E+00  0.975209E+00  0.653335E-02  0.653335E-02
   9.646440  0.975412E+00  0.975412E+00  0.646252E-02  0.646252E-02
   9.673650  0.975615E+00  0.975615E+00  0.639090E-02  0.639090E-02
   9.700860  0.975817E+00  0.975817E+00  0.631856E-02  0.631856E-02
   9.728070  0.976021E+00  0.976021E+00  0.624556E-02  0.624556E-02
   9.755290  0.976226E+00  0.976226E+00  0.617200E-02  0.617200E-02
   9.782500  0.976435E+00  0.976435E+00  0.609816E-02  0.609816E-02
   9.809710  0.976647E+00  0.976647E+00  0.602448E-02  0.602448E-02
   9.836920  0.976865E+00  0.976865E+00  0.595174E-02  0.595174E-02
   9.864130  0.977090E+00  0.977090E+00  0.588105E-02  0.588105E-02
   9.891340  0.977322E+00  0.977322E+00  0.581380E-02  0.581380E-02
   9.918550  0.977563E+00  0.977563E+00  0.575143E-02  0.575143E-02
   9.945760  0.977812E+00  0.977812E+00  0.569541E-02  0.569541E-02
   9.972980  0.978071E+00  0.978071E+00  0.564721E-02  0.564721E-02
  10.000190  0.978340E+00  0.978340E+00  0.560846E-02  0.560846E-02
  10.027400  0.978621E+00  0.978621E+00  0.558103E-02  0.558103E-02
  10.054610  0.978916E+00  0.978916E+00  0.556733E-02  0.556733E-02
  10.081820  0.979226E+00  0.979226E+00  0.557067E-02  0.557067E-02
  10.109030  0.979554E+00  0.979554E+00  0.559584E-02  0.559584E-02
  10.136240  0.979903E+00  0.979903E+00  0.565001E-02  0.565001E-02
  10.163460  0.980278E+00  0.980278E+00  0.574453E-02  0.574453E-02
  10.190670  0.980679E+00  0.980679E+00  0.589731E-02  0.589731E-02
  10.217880  0.981100E+00  0.981100E+00  0.613549E-02  0.613549E-02
  10.245090  0.981519E+00  0.981519E+00  0.649399E-02  0.649399E-02
  10.272300  0.981887E+00  0.981887E+00  0.700644E-02  0.700644E-02
  10.299510  0.982115E+00  0.982115E+00  0.768231E-02  0.768231E-02
  10.326720  0.982097E+00  0.982097E+00  0.846855E-02  0.846855E-02
  10.353940  0.981763E+00  0.981763E+00  0.922862E-02  0.922862E-02
  10.381150  0.981152E+00  0.981152E+00  0.978867E-02  0.978867E-02
  10.408360  0.980416E+00  0.980416E+00  0.100437E-01  0.100437E-01
  10.435570  0.979719E+00  0.979719E+00  0.100166E-01  0.100166E-01
  10.462780  0.979146E+00  0.979146E+00  0.980310E-02  0.980310E-02
  10.489990  0.978709E+00  0.978709E+00  0.948920E-02  0.948920E-02
  10.517200  0.978389E+00  0.978389E+00  0.912566E-02  0.912566E-02
  10.544420  0.978169E+00  0.978169E+00  0.873996E-02  0.873996E-02
  10.571630  0.978034E+00  0.978034E+00  0.834934E-02  0.834934E-02
  10.598840  0.977974E+00  0.977974E+00  0.796611E-02  0.796611E-02
  10.626050  0.977977E+00  0.977977E+00  0.760052E-02  0.760052E-02
  10.653260  0.978034E+00  0.978034E+00  0.726116E-02  0.726116E-02
  10.680470  0.978132E+00  0.978132E+00  0.695445E-02  0.695445E-02
  10.707680  0.978259E+00  0.978259E+00  0.668338E-02  0.668338E-02
  10.734900  0.978402E+00  0.978402E+00  0.644653E-02  0.644653E-02
  10.762110  0.978553E+00  0.978553E+00  0.623914E-02  0.623914E-02
  10.789320  0.978708E+00  0.978708E+00  0.605511E-02  0.605511E-02
  10.816530  0.978863E+00  0.978863E+00  0.588940E-02  0.588940E-02
  10.843740  0.979018E+00  0.979018E+00  0.573864E-02  0.573864E-02
  10.870950  0.979175E+00  0.979175E+00  0.560090E-02  0.560090E-02
  10.898160  0.979332E+00  0.979332E+00  0.547530E-02  0.547530E-02
  10.925380  0.979490E+00  0.979490E+00  0.536135E-02  0.536135E-02
  10.952590  0.979646E+00  0.979646E+00  0.525863E-02  0.525863E-02
  10.979800  0.979801E+00  0.979801E+00  0.516629E-02  0.516629E-02
  11.007010  0.979952E+00  0.979952E+00  0.508320E-02  0.508320E-02
  11.034220  0.980100E+00  0.980100E+00  0.500789E-02  0.500789E-02
  11.061430  0.980243E+00  0.980243E+00  0.493877E-02  0.493877E-02
  11.088640  0.980381E+00  0.980381E+00  0.487435E-02  0.487435E-02
  11.115850  0.980516E+00  0.980516E+00  0.481338E-02  0.481338E-02
  11.143070  0.980648E+00  0.980648E+00  0.475489E-02  0.475489E-02
  11.170280  0.980777E+00  0.980777E+00  0.469819E-02  0.469819E-02
  11.197490  0.980905E+00  0.980905E+00  0.464273E-02  0.464273E-02
  11.224700  0.981031E+00  0.981031E+00  0.458816E-02  0.458816E-02
  11.251910  0.981158E+00  0.981158E+00  0.453426E-02  0.453426E-02
  11.279120  0.981285E+00  0.981285E+00  0.448099E-02  0.448099E-02
  11.306330  0.981414E+00  0.981414E+00  0.442844E-02  0.442844E-02
  11.333550  0.981545E+00  0.981545E+00  0.437693E-02  0.437693E-02
  11.360760  0.981681E+00  0.981681E+00  0.432708E-02  0.432708E-02
  11.387970  0.981821E+00  0.981821E+00  0.427976E-02  0.427976E-02
  11.415180  0.981967E+00  0.981967E+00  0.423626E-02  0.423626E-02
  11.442390  0.982120E+00  0.982120E+00  0.419836E-02  0.419836E-02
  11.469600  0.982281E+00  0.982281E+00  0.416833E-02  0.416833E-02
  11.496810  0.982450E+00  0.982450E+00  0.414885E-02  0.414885E-02
  11.524030  0.982626E+00  0.982626E+00  0.414297E-02  0.414297E-02
  11.551240  0.982810E+00  0.982810E+00  0.415438E-02  0.415438E-02
  11.578450  0.982999E+00  0.982999E+00  0.418793E-02  0.418793E-02
  11.605660  0.983193E+00  0.983193E+00  0.424992E-02  0.424992E-02
  11.632870  0.983383E+00  0.983383E+00  0.434770E-02  0.434770E-02
  11.660080  0.983560E+00  0.983560E+00  0.448812E-02  0.448812E-02
  11.687290  0.983707E+00  0.983707E+00  0.467478E-02  0.467478E-02
  11.714510  0.983802E+00  0.983802E+00  0.490432E-02  0.490432E-02
  11.741720  0.983825E+00  0.983825E+00  0.516269E-02  0.516269E-02
  11.768930  0.983754E+00  0.983754E+00  0.542301E-02  0.542301E-02
  11.796140  0.983583E+00  0.983583E+00  0.564343E-02  0.564343E-02
  11.823350  0.983334E+00  0.983334E+00  0.577458E-02  0.577458E-02
  11.850560  0.983061E+00  0.983061E+00  0.578810E-02  0.578810E-02
  11.877770  0.982821E+00  0.982821E+00  0.569945E-02  0.569945E-02
  11.904990  0.982640E+00  0.982640E+00  0.554787E-02  0.554787E-02
  11.932200  0.982520E+00  0.982520E+00  0.536660E-02  0.536660E-02
  11.959410  0.982451E+00  0.982451E+00  0.517533E-02  0.517533E-02
  11.986620  0.982424E+00  0.982424E+00  0.498509E-02  0.498509E-02
  12.013830  0.982431E+00  0.982431E+00  0.480245E-02  0.480245E-02
  12.041040  0.982466E+00  0.982466E+00  0.463156E-02  0.463156E-02
  12.068250  0.982521E+00  0.982521E+00  0.447493E-02  0.447493E-02
  12.095470  0.982592E+00  0.982592E+00  0.433383E-02  0.433383E-02
  12.122680  0.982674E+00  0.982674E+00  0.420867E-02  0.420867E-02
  12.149890  0.982763E+00  0.982763E+00  0.409878E-02  0.409878E-02
  12.177100  0.982854E+00  0.982854E+00  0.400276E-02  0.400276E-02
  12.204310  0.982944E+00  0.982944E+00  0.391856E-02  0.391856E-02
  12.231520  0.983034E+00  0.983034E+00  0.384392E-02  0.384392E-02
  12.258730  0.983120E+00  0.983120E+00  0.377676E-02  0.377676E-02
  12.285940  0.983204E+00  0.983204E+00  0.371534E-02  0.371534E-02
  12.313160  0.983284E+00  0.983284E+00  0.365831E-02  0.365831E-02
  12.340370  0.983362E+00  0.983362E+00  0.360471E-02  0.360471E-02
  12.367580  0.983438E+00  0.983438E+00  0.355374E-02  0.355374E-02
  12.394790  0.983511E+00  0.983511E+00  0.350484E-02  0.350484E-02
  12.422000  0.983581E+00  0.983581E+00  0.345753E-02  0.345753E-02
  12.449210  0.983650E+00  0.983650E+00  0.341141E-02  0.341141E-02
  12.476420  0.983718E+00  0.983718E+00  0.336613E-02  0.336613E-02
  12.503640  0.983783E+00  0.983783E+00  0.332133E-02  0.332133E-02
  12.530850  0.983848E+00  0.983848E+00  0.327676E-02  0.327676E-02
  12.558060  0.983911E+00  0.983911E+00  0.323216E-02  0.323216E-02
  12.585270  0.983974E+00  0.983974E+00  0.318739E-02  0.318739E-02
  12.612480  0.984037E+00  0.984037E+00  0.314242E-02  0.314242E-02
  12.639690  0.984100E+00  0.984100E+00  0.309740E-02  0.309740E-02
  12.666900  0.984165E+00  0.984165E+00  0.305275E-02  0.305275E-02
  12.694120  0.984230E+00  0.984230E+00  0.300918E-02  0.300918E-02
  12.721330  0.984296E+00  0.984296E+00  0.296744E-02  0.296744E-02
  12.748540  0.984363E+00  0.984363E+00  0.292794E-02  0.292794E-02
  12.775750  0.984429E+00  0.984429E+00  0.289078E-02  0.289078E-02
  12.802960  0.984494E+00  0.984494E+00  0.285598E-02  0.285598E-02
  12.830170  0.984558E+00  0.984558E+00  0.282344E-02  0.282344E-02
  12.857380  0.984621E+00  0.984621E+00  0.279288E-02  0.279288E-02
  12.884600  0.984681E+00  0.984681E+00  0.276391E-02  0.276391E-02
  12.911810  0.984740E+00  0.984740E+00  0.273623E-02  0.273623E-02
  12.939020  0.984797E+00  0.984797E+00  0.270961E-02  0.270961E-02
  12.966230  0.984851E+00  0.984851E+00  0.268393E-02  0.268393E-02
  12.993440  0.984903E+00  0.984903E+00  0.265904E-02  0.265904E-02
  13.020650  0.984953E+00  0.984953E+00  0.263469E-02  0.263469E-02
  13.047860  0.985000E+00  0.985000E+00  0.261053E-02  0.261053E-02
  13.075080  0.985044E+00  0.985044E+00  0.258625E-02  0.258625E-02
  13.102290  0.985086E+00  0.985086E+00  0.256160E-02  0.256160E-02
  13.129500  0.985125E+00  0.985125E+00  0.253637E-02  0.253637E-02
  13.156710  0.985162E+00  0.985162E+00  0.251037E-02  0.251037E-02
  13.183920  0.985197E+00  0.985197E+00  0.248349E-02  0.248349E-02
  13.211130  0.985229E+00  0.985229E+00  0.245560E-02  0.245560E-02
  13.238340  0.985258E+00  0.985258E+00  0.242661E-02  0.242661E-02
  13.265560  0.985285E+00  0.985285E+00  0.239638E-02  0.239638E-02
  13.292770  0.985308E+00  0.985308E+00  0.236472E-02  0.236472E-02
  13.319980  0.985328E+00  0.985328E+00  0.233129E-02  0.233129E-02
  13.347190  0.985344E+00  0.985344E+00  0.229560E-02  0.229560E-02
  13.374400  0.985356E+00  0.985356E+00  0.225688E-02  0.225688E-02
  13.401610  0.985362E+00  0.985362E+00  0.221396E-02  0.221396E-02
  13.428820  0.985361E+00  0.985361E+00  0.216501E-02  0.216501E-02
  13.456030  0.985355E+00  0.985355E+00  0.210733E-02  0.210733E-02
  13.483250  0.985341E+00  0.985341E+00  0.203710E-02  0.203710E-02
  13.510460  0.985324E+00  0.985324E+00  0.194922E-02  0.194922E-02
  13.537670  0.985307E+00  0.985307E+00  0.183749E-02  0.183749E-02
  13.564880  0.985301E+00  0.985301E+00  0.169696E-02  0.169696E-02
